"rt","responses","trial_type","trial_index","time_elapsed","internal_node_id","subject_ID","expName","date","question_order","success","final_height_px","final_width_px","scale_factor","screenWidth_Inches","screenHeight_Inches","screenDiagonal_Inches","view_history","stimulus","key_press","FinalLinePosition","FaceType","TiltDirection","TubeType","timeViewing","timeMoving","timeHumanize","nHumanizeTrials","HumanizeImage","ViewingImage","MovingImage","isPractice","BreakLength"
"3795.97500001546","{}","survey-html-form","0","3800","0.0-0.0-0.0","7m447","TubeTilt2","2020_6_20_20_39_43_420","","","","","","","","","","","","","","","","","","","","","","","",""
"1205.1750000100583","{""age"":""22""}","survey-text","1","5008","0.0-0.0-1.0","7m447","TubeTilt2","2020_6_20_20_39_43_420","","","","","","","","","","","","","","","","","","","","","","","",""
"1390.1599999517202","{""sex"":""Male""}","survey-multi-choice","2","6399","0.0-0.0-2.0","7m447","TubeTilt2","2020_6_20_20_39_43_420","[0]","","","","","","","","","","","","","","","","","","","","","","",""
"627.184999990277","{""handedness"":""Right""}","survey-multi-choice","3","7027","0.0-0.0-3.0","7m447","TubeTilt2","2020_6_20_20_39_43_420","[0]","","","","","","","","","","","","","","","","","","","","","","",""
"","","fullscreen","4","8947","0.0-1.0","7m447","TubeTilt2","2020_6_20_20_39_43_420","","true","","","","","","","","","","","","","","","","","","","","","",""
"","","davis-resize","5","10203","0.0-2.0","7m447","TubeTilt2","2020_6_20_20_39_43_420","","","256","404","1.1970370370370371","14.970297029702971","9.296875","17.622192767166027","","","","","","","","","","","","","","","",""
"2507.805000001099","","instructions","6","12711","0.0-3.0","7m447","TubeTilt2","2020_6_20_20_39_43_420","","","","","","","","","[{""page_index"":0,""viewing_time"":641.9500000192784},{""page_index"":1,""viewing_time"":347.67499996814877},{""page_index"":2,""viewing_time"":167.10000002058223},{""page_index"":3,""viewing_time"":140.0549999671057},{""page_index"":4,""viewing_time"":133.71500000357628},{""page_index"":5,""viewing_time"":132.32000003335997},{""page_index"":6,""viewing_time"":136.52499997988343},{""page_index"":7,""viewing_time"":141.1649999790825},{""page_index"":8,""viewing_time"":351.5000000479631},{""page_index"":9,""viewing_time"":315.4849999700673}]","","","","","","","","","","","","","","",""
"3922.6849999977276","{""CheckInstructionsAreUnderstood"":[""The tipping point is the theoretical angle where tipping a tube any further and letting go would cause the tube to fall on its side"",""If you tilt a tube, but not beyond its tipping point, and let go of it, it will fall back to its upright position"",""If you tilt a tube beyond its tipping point and let go of it, it will fall on its side"",""The shape and size of a paper tube determines its tipping point angle""]}","survey-multi-select","7","16636","0.0-4.0-0.0","7m447","TubeTilt2","2020_6_20_20_39_43_420","[0]","","","","","","","","","","","","","","","","","","","","","","",""
"633.9700000244193","","html-keyboard-response","8","17272","0.0-5.0","7m447","TubeTilt2","2020_6_20_20_39_43_420","","","","","","","","","","<div style=""max-width:600px"";><font size='+1'><p><b>Well done! All 4 statements were true.</b></p><u><p>Practice Trials</u></font></p><p>Remember: Your task is to find the tipping point angle of the paper tube using the <b>left</b> and <b>right</b> arrow keys, and you press the <b>space</b> to finalize your answer.</p><p>Press ""c"" to continue to the trials.</p></div>","67","","","","","","","","","","","","",""
"","","Davis-Tube-Tilt","9","19232","0.0-6.0-0.0","7m447","TubeTilt2","2020_6_20_20_39_43_420","","","","","","","","","","","","-2","CO","LEFT","TF","765.6150000402704","430.2599999937229","753.5300000454299","1","images/Humanize/CO_TF.jpg","images/Viewing/CO_LEFT_TF.jpg","images/Moving/Closed_Open.jpg","true",""
"","","Davis-Tube-Tilt","10","25177","0.0-6.0-0.1","7m447","TubeTilt2","2020_6_20_20_39_43_420","","","","","","","","","","","","2","OC","RIGHT","ST","795.3149999957532","155.765000032261","3988.3000000263564","4","images/Humanize/OC_ST.jpg","images/Viewing/OC_RIGHT_ST.jpg","images/Moving/Open_Closed.jpg","true",""
"824.8299999977462","","html-keyboard-response","11","27004","0.0-7.0","7m447","TubeTilt2","2020_6_20_20_39_43_420","","","","","","","","","","<div style=""max-width:600px"";><font size='+1'><b><u><p>Main Experiment</u></b></font></p><p>Good job! You're now ready to start the experiment. Press ""c"" to begin.</p><p>Again: Your task is to find the tipping point angle of the paper tube using the left and right arrow keys, and you press the space to finalize your answer.</p><p>If you are end up among the top 50% participants in terms of estimating the correct tipping point angles, you will receive a <b>50% bonus</b>.</p></div>","67","","","","","","","","","","","","",""
"","","Davis-Tube-Tilt","12","30383","0.0-8.0-0.0","7m447","TubeTilt2","2020_6_20_20_39_43_420","","","","","","","","","","","","2","CO","RIGHT","TT","633.8899999973364","199.07999999122694","2540.999999968335","2","images/Humanize/CO_TT.jpg","images/Viewing/CO_RIGHT_TT.jpg","images/Moving/Closed_Open.jpg","false",""
"","","Davis-Tube-Tilt","13","32784","0.0-8.0-0.1","7m447","TubeTilt2","2020_6_20_20_39_43_420","","","","","","","","","","","","2","OC","RIGHT","TF","452.94000004651025","310.80500001553446","627.474999986589","1","images/Humanize/OC_TF.jpg","images/Viewing/OC_RIGHT_TF.jpg","images/Moving/Open_Closed.jpg","false",""
"","","Davis-Tube-Tilt","14","35073","0.0-8.0-0.2","7m447","TubeTilt2","2020_6_20_20_39_43_420","","","","","","","","","","","","-2","CO","LEFT","ST","283.3049999899231","296.9300000113435","697.6250000298023","1","images/Humanize/CO_ST.jpg","images/Viewing/CO_LEFT_ST.jpg","images/Moving/Closed_Open.jpg","false",""
"","","Davis-Tube-Tilt","15","39333","0.0-8.0-0.3","7m447","TubeTilt2","2020_6_20_20_39_43_420","","","","","","","","","","","","-2","OC","LEFT","TF","852.9749999870546","429.6500000054948","1970.4100000089966","2","images/Humanize/OC_TF.jpg","images/Viewing/OC_LEFT_TF.jpg","images/Moving/Open_Closed.jpg","false",""
"","","Davis-Tube-Tilt","16","41776","0.0-8.0-0.4","7m447","TubeTilt2","2020_6_20_20_39_43_420","","","","","","","","","","","","-2","OC","LEFT","SF","713.9549999847077","146.8800000147894","570.5350000062026","1","images/Humanize/OC_SF.jpg","images/Viewing/OC_LEFT_SF.jpg","images/Moving/Open_Closed.jpg","false",""
"","","Davis-Tube-Tilt","17","45799","0.0-8.0-0.5","7m447","TubeTilt2","2020_6_20_20_39_43_420","","","","","","","","","","","","2","CO","RIGHT","SF","253.9550000219606","468.8999999780208","2290.129999979399","2","images/Humanize/CO_SF.jpg","images/Viewing/CO_RIGHT_SF.jpg","images/Moving/Closed_Open.jpg","false",""
"","","Davis-Tube-Tilt","18","49835","0.0-8.0-0.6","7m447","TubeTilt2","2020_6_20_20_39_43_420","","","","","","","","","","","","2","OC","RIGHT","TT","576.6650000005029","488.0150000099093","1965.2399999904446","2","images/Humanize/OC_TT.jpg","images/Viewing/OC_RIGHT_TT.jpg","images/Moving/Open_Closed.jpg","false",""
"","","Davis-Tube-Tilt","19","53007","0.0-8.0-0.7","7m447","TubeTilt2","2020_6_20_20_39_43_420","","","","","","","","","","","","2","CO","RIGHT","ST","1522.9249999974854","229.2800000286661","414.57500000251457","1","images/Humanize/CO_ST.jpg","images/Viewing/CO_RIGHT_ST.jpg","images/Moving/Closed_Open.jpg","false","999.7550000553019"
"","","Davis-Tube-Tilt","20","55628","0.0-8.0-0.8","7m447","TubeTilt2","2020_6_20_20_39_43_420","","","","","","","","","","","","2","OC","RIGHT","SF","522.6050000055693","277.33499999158084","815.9749999758787","1","images/Humanize/OC_SF.jpg","images/Viewing/OC_RIGHT_SF.jpg","images/Moving/Open_Closed.jpg","false",""
"","","Davis-Tube-Tilt","21","57737","0.0-8.0-0.9","7m447","TubeTilt2","2020_6_20_20_39_43_420","","","","","","","","","","","","-2","CO","LEFT","TF","345.77499999431893","135.53500000853091","619.9950000154786","1","images/Humanize/CO_TF.jpg","images/Viewing/CO_LEFT_TF.jpg","images/Moving/Closed_Open.jpg","false",""
"","","Davis-Tube-Tilt","22","60059","0.0-8.0-0.10","7m447","TubeTilt2","2020_6_20_20_39_43_420","","","","","","","","","","","","-2","OC","LEFT","ST","779.2650000192225","136.57500001136214","401.31500002462417","1","images/Humanize/OC_ST.jpg","images/Viewing/OC_LEFT_ST.jpg","images/Moving/Open_Closed.jpg","false",""
"","","Davis-Tube-Tilt","23","62206","0.0-8.0-0.11","7m447","TubeTilt2","2020_6_20_20_39_43_420","","","","","","","","","","","","-2","CO","LEFT","TT","375.060000049416","426.34499998530373","336.46000002045184","1","images/Humanize/CO_TT.jpg","images/Viewing/CO_LEFT_TT.jpg","images/Moving/Closed_Open.jpg","false",""
"","","Davis-Tube-Tilt","24","64383","0.0-8.0-0.12","7m447","TubeTilt2","2020_6_20_20_39_43_420","","","","","","","","","","","","2","CO","RIGHT","TF","587.4399999738671","172.75999998673797","406.7700000014156","1","images/Humanize/CO_TF.jpg","images/Viewing/CO_RIGHT_TF.jpg","images/Moving/Closed_Open.jpg","false",""
"","","Davis-Tube-Tilt","25","68449","0.0-8.0-0.13","7m447","TubeTilt2","2020_6_20_20_39_43_420","","","","","","","","","","","","-2","CO","LEFT","SF","618.3700000401586","266.4849999709986","2169.1150000551715","2","images/Humanize/CO_SF.jpg","images/Viewing/CO_LEFT_SF.jpg","images/Moving/Closed_Open.jpg","false",""
"","","Davis-Tube-Tilt","26","70720","0.0-8.0-0.14","7m447","TubeTilt2","2020_6_20_20_39_43_420","","","","","","","","","","","","-2","OC","LEFT","TT","658.0949999624863","70.88500005193055","532.9100000089966","1","images/Humanize/OC_TT.jpg","images/Viewing/OC_LEFT_TT.jpg","images/Moving/Open_Closed.jpg","false",""
"","","Davis-Tube-Tilt","27","72788","0.0-8.0-0.15","7m447","TubeTilt2","2020_6_20_20_39_43_420","","","","","","","","","","","","2","OC","RIGHT","ST","481.34500003652647","163.00500003853813","415.45500000938773","1","images/Humanize/OC_ST.jpg","images/Viewing/OC_RIGHT_ST.jpg","images/Moving/Open_Closed.jpg","false","818.1500000064261"
"","","Davis-Tube-Tilt","28","75091","0.0-8.0-0.16","7m447","TubeTilt2","2020_6_20_20_39_43_420","","","","","","","","","","","","2","OC","RIGHT","TF","365.74999999720603","430.0950000179","501.360000052955","1","images/Humanize/OC_TF.jpg","images/Viewing/OC_RIGHT_TF.jpg","images/Moving/Open_Closed.jpg","false",""
"","","Davis-Tube-Tilt","29","77046","0.0-8.0-0.17","7m447","TubeTilt2","2020_6_20_20_39_43_420","","","","","","","","","","","","-2","CO","LEFT","TT","239.8649999522604","162.45500004151836","547.6699999999255","1","images/Humanize/CO_TT.jpg","images/Viewing/CO_LEFT_TT.jpg","images/Moving/Closed_Open.jpg","false",""
"","","Davis-Tube-Tilt","30","79348","0.0-8.0-0.18","7m447","TubeTilt2","2020_6_20_20_39_43_420","","","","","","","","","","","","-2","OC","LEFT","TT","641.2149999523535","123.06499999249354","528.6249999771826","1","images/Humanize/OC_TT.jpg","images/Viewing/OC_LEFT_TT.jpg","images/Moving/Open_Closed.jpg","false",""
"","","Davis-Tube-Tilt","31","82927","0.0-8.0-0.19","7m447","TubeTilt2","2020_6_20_20_39_43_420","","","","","","","","","","","","4","CO","RIGHT","SF","1523.685000021942","453.5800000303425","591.2649999954738","1","images/Humanize/CO_SF.jpg","images/Viewing/CO_RIGHT_SF.jpg","images/Moving/Closed_Open.jpg","false",""
"","","Davis-Tube-Tilt","32","86715","0.0-8.0-0.20","7m447","TubeTilt2","2020_6_20_20_39_43_420","","","","","","","","","","","","-2","CO","LEFT","ST","416.0050000064075","142.46999996248633","2222.4350000033155","2","images/Humanize/CO_ST.jpg","images/Viewing/CO_LEFT_ST.jpg","images/Moving/Closed_Open.jpg","false",""
"","","Davis-Tube-Tilt","33","89341","0.0-8.0-0.21","7m447","TubeTilt2","2020_6_20_20_39_43_420","","","","","","","","","","","","8","CO","RIGHT","ST","316.2599999923259","793.3649999904446","506.58499996643513","1","images/Humanize/CO_ST.jpg","images/Viewing/CO_RIGHT_ST.jpg","images/Moving/Closed_Open.jpg","false",""
"","","Davis-Tube-Tilt","34","91322","0.0-8.0-0.22","7m447","TubeTilt2","2020_6_20_20_39_43_420","","","","","","","","","","","","-2","OC","LEFT","TF","470.3999999910593","250.56999997468665","255.50999998813495","1","images/Humanize/OC_TF.jpg","images/Viewing/OC_LEFT_TF.jpg","images/Moving/Open_Closed.jpg","false",""
"","","Davis-Tube-Tilt","35","95689","0.0-8.0-0.23","7m447","TubeTilt2","2020_6_20_20_39_43_420","","","","","","","","","","","","-2","CO","LEFT","SF","362.1749999583699","780.0750000169501","2212.7699999837205","2","images/Humanize/CO_SF.jpg","images/Viewing/CO_LEFT_SF.jpg","images/Moving/Closed_Open.jpg","false","927.7749999891967"
"","","Davis-Tube-Tilt","36","98050","0.0-8.0-0.24","7m447","TubeTilt2","2020_6_20_20_39_43_420","","","","","","","","","","","","-2","OC","LEFT","ST","630.5649999994785","119.30999998003244","602.6599999750033","1","images/Humanize/OC_ST.jpg","images/Viewing/OC_LEFT_ST.jpg","images/Moving/Open_Closed.jpg","false",""
"","","Davis-Tube-Tilt","37","101312","0.0-8.0-0.25","7m447","TubeTilt2","2020_6_20_20_39_43_420","","","","","","","","","","","","-2","OC","LEFT","SF","162.18499996466562","152.11999998427927","1936.23499997193","2","images/Humanize/OC_SF.jpg","images/Viewing/OC_LEFT_SF.jpg","images/Moving/Open_Closed.jpg","false",""
"","","Davis-Tube-Tilt","38","105594","0.0-8.0-0.26","7m447","TubeTilt2","2020_6_20_20_39_43_420","","","","","","","","","","","","2","OC","RIGHT","TT","1007.5199999846518","156.66999999666587","2110.2049999753945","2","images/Humanize/OC_TT.jpg","images/Viewing/OC_RIGHT_TT.jpg","images/Moving/Open_Closed.jpg","false",""
"","","Davis-Tube-Tilt","39","108116","0.0-8.0-0.27","7m447","TubeTilt2","2020_6_20_20_39_43_420","","","","","","","","","","","","2","CO","RIGHT","TF","674.8549999902025","184.3900000094436","654.9399999785237","1","images/Humanize/CO_TF.jpg","images/Viewing/CO_RIGHT_TF.jpg","images/Moving/Closed_Open.jpg","false",""
"","","Davis-Tube-Tilt","40","110352","0.0-8.0-0.28","7m447","TubeTilt2","2020_6_20_20_39_43_420","","","","","","","","","","","","2","CO","RIGHT","TT","548.8699999987148","152.14999997988343","527.6750000193715","1","images/Humanize/CO_TT.jpg","images/Viewing/CO_RIGHT_TT.jpg","images/Moving/Closed_Open.jpg","false",""
"","","Davis-Tube-Tilt","41","114003","0.0-8.0-0.29","7m447","TubeTilt2","2020_6_20_20_39_43_420","","","","","","","","","","","","2","OC","RIGHT","SF","464.3050000304356","152.05000003334135","2024.8399999691173","2","images/Humanize/OC_SF.jpg","images/Viewing/OC_RIGHT_SF.jpg","images/Moving/Open_Closed.jpg","false",""
"","","Davis-Tube-Tilt","42","116572","0.0-8.0-0.30","7m447","TubeTilt2","2020_6_20_20_39_43_420","","","","","","","","","","","","4","OC","RIGHT","ST","398.96000002045184","578.4200000343844","585.1200000033714","1","images/Humanize/OC_ST.jpg","images/Viewing/OC_RIGHT_ST.jpg","images/Moving/Open_Closed.jpg","false",""
"","","Davis-Tube-Tilt","43","118749","0.0-8.0-0.31","7m447","TubeTilt2","2020_6_20_20_39_43_420","","","","","","","","","","","","-2","CO","LEFT","TF","477.565000008326","158.6949999909848","530.3399999975227","1","images/Humanize/CO_TF.jpg","images/Viewing/CO_LEFT_TF.jpg","images/Moving/Closed_Open.jpg","false",""
"3092.0899999910034","{""Hypothesis"":""something""}","survey-text","44","122851","0.0-9.0-0.0","7m447","TubeTilt2","2020_6_20_20_39_43_420","","","","","","","","","","","","","","","","","","","","","","","",""
"2950.0150000094436","{""Influence_YesOrNo"":""Yes""}","survey-multi-choice","45","125802","0.0-9.0-1.0","7m447","TubeTilt2","2020_6_20_20_39_43_420","[0]","","","","","","","","","","","","","","","","","","","","","","",""
"4574.78500000434","{""influence_string"":""it just did""}","survey-text","46","130380","0.0-9.0-2.0-0.0","7m447","TubeTilt2","2020_6_20_20_39_43_420","","","","","","","","","","","","","","","","","","","","","","","",""
"4302.6950000203215","{""AdditionalComments"":""-davis""}","survey-text","47","134685","0.0-9.0-3.0","7m447","TubeTilt2","2020_6_20_20_39_43_420","","","","","","","","","","","","","","","","","","","","","","","",""
